"success","timeout","failed_images","failed_audio","failed_video","trial_type","trial_index","time_elapsed","internal_node_id","condition","counterbalancing","order","version","followup","rt","response","task_part","accuracy","stimulus","choices","correct_response","correct","question_order"
"true","false","[]","[]","[]","preload","0","3","0.0-0.0","NLP","C2","o2","NLP_C2","C3","","","","","","","","",""
"","","","","","survey-text","1","134277","0.0-1.0","NLP","C2","o2","NLP_C2","C3","134245","{""participant_name"":""Edwin"",""participant_ID"":""021""}","id-question","","","","","",""
"","","","","","survey","2","140108","0.0-2.0","NLP","C2","o2","NLP_C2","C3","5762","{""condition"":""NLP"",""counterbalancing"":""2"",""order"":2}","version","[]","","","","",""
"true","","","","","fullscreen","3","150773","0.0-3.0","NLP","C2","o2","NLP_C2","C3","","","fullscreen","","","","","",""
"","","","","","video-button-response","4","160052","0.0-4.0-0.0-0.0-0.0-0.0","NLP","C2","o2","NLP_C2","C3","null","null","demo","","[""video/shape_inst1_C2.mp4""]","","","",""
"","","","","","video-button-response","5","168878","0.0-4.0-0.0-0.0-0.0-1.0","NLP","C2","o2","NLP_C2","C3","8822","0","demo","","[""video/shape_inst2_C2.mp4""]","","","",""
"","","","","","video-button-response","6","170376","0.0-4.0-0.0-0.0-0.0-2.0","NLP","C2","o2","NLP_C2","C3","null","null","demo","","[""video/trial_correct_C2.mp4""]","","","",""
"","","","","","video-button-response","7","177597","0.0-4.0-0.0-0.0-0.0-3.0","NLP","C2","o2","NLP_C2","C3","7218","0","demo","","[""video/shape_inst3_C2.mp4""]","","","",""
"","","","","","video-button-response","8","179102","0.0-4.0-0.0-0.0-0.0-4.0","NLP","C2","o2","NLP_C2","C3","null","null","demo","","[""video/trial_wrong_C2.mp4""]","","","",""
"","","","","","video-button-response","9","188681","0.0-4.0-0.0-0.0-0.0-5.0","NLP","C2","o2","NLP_C2","C3","null","null","demo","","[""video/shape_inst4_C2.mp4""]","","","",""
"","","","","","video-button-response","10","199753","0.0-4.0-0.0-0.0-0.0-6.0","NLP","C2","o2","NLP_C2","C3","null","null","demo","","[""video/shape_inst5_C2.mp4""]","","","",""
"","","","","","html-button-response","11","204633","0.0-4.0-0.0-0.0-0.0-7.0","NLP","C2","o2","NLP_C2","C3","4877","1","demo","","<p> Do you want to hear the instructions again or are you ready to play the game?</p>","","","",""
"","","","","","html-button-response","12","211591","0.0-4.0-1.0-1.0-0.0-0.0","NLP","C2","o2","NLP_C2","C3","6950","2","day-1","","<img src=""img/char1_C2.png""></img>","[""img/shape/63g.png"",""img/shape/76b.png"",""img/shape/15o.png"",""img/shape/34r.png""]","[0,1,2,3]","true",""
"","","","","","video-button-response","13","213129","0.0-4.0-1.0-1.0-0.0-1.0","NLP","C2","o2","NLP_C2","C3","null","null","day-1","","[""video/trial_correct_C2.mp4""]","","","",""
"","","","","","html-button-response","14","217751","0.0-4.0-1.0-1.0-0.0-0.1","NLP","C2","o2","NLP_C2","C3","4617","2","day-1","","<img src=""img/char1_C2.png""></img>","[""img/shape/35b.png"",""img/shape/64o.png"",""img/shape/23g.png"",""img/shape/16r.png""]","[]","false",""
"","","","","","video-button-response","15","219252","0.0-4.0-1.0-1.0-0.0-1.1","NLP","C2","o2","NLP_C2","C3","null","null","day-1","","[""video/trial_wrong_C2.mp4""]","","","",""
"","","","","","html-button-response","16","225106","0.0-4.0-1.0-1.0-0.0-0.2","NLP","C2","o2","NLP_C2","C3","5852","0","day-1","","<img src=""img/char1_C2.png""></img>","[""img/shape/43o.png"",""img/shape/65r.png"",""img/shape/54g.png"",""img/shape/36b.png""]","[0,1,2,3]","true",""
"","","","","","video-button-response","17","226614","0.0-4.0-1.0-1.0-0.0-1.2","NLP","C2","o2","NLP_C2","C3","null","null","day-1","","[""video/trial_correct_C2.mp4""]","","","",""
"","","","","","html-button-response","18","230320","0.0-4.0-1.0-1.0-0.0-0.3","NLP","C2","o2","NLP_C2","C3","3705","3","day-1","","<img src=""img/char1_C2.png""></img>","[""img/shape/43r.png"",""img/shape/15g.png"",""img/shape/66b.png"",""img/shape/24o.png""]","[0,1,2,3]","true",""
"","","","","","video-button-response","19","231796","0.0-4.0-1.0-1.0-0.0-1.3","NLP","C2","o2","NLP_C2","C3","null","null","day-1","","[""video/trial_correct_C2.mp4""]","","","",""
"","","","","","html-button-response","20","236439","0.0-4.0-1.0-1.0-0.0-0.4","NLP","C2","o2","NLP_C2","C3","4642","1","day-1","","<img src=""img/char1_C2.png""></img>","[""img/shape/14g.png"",""img/shape/33o.png"",""img/shape/56r.png"",""img/shape/75b.png""]","[0,1,2,3]","true",""
"","","","","","video-button-response","21","237940","0.0-4.0-1.0-1.0-0.0-1.4","NLP","C2","o2","NLP_C2","C3","null","null","day-1","","[""video/trial_correct_C2.mp4""]","","","",""
"","","","","","html-button-response","22","240586","0.0-4.0-1.0-1.0-0.0-0.5","NLP","C2","o2","NLP_C2","C3","2645","0","day-1","","<img src=""img/char1_C2.png""></img>","[""img/shape/34o.png"",""img/shape/45g.png"",""img/shape/26b.png"",""img/shape/83r.png""]","[0,1,2,3]","true",""
"","","","","","video-button-response","23","242058","0.0-4.0-1.0-1.0-0.0-1.5","NLP","C2","o2","NLP_C2","C3","null","null","day-1","","[""video/trial_correct_C2.mp4""]","","","",""
"","","","","","html-button-response","24","244485","0.0-4.0-1.0-1.0-0.0-0.6","NLP","C2","o2","NLP_C2","C3","2426","1","day-1","","<img src=""img/char1_C2.png""></img>","[""img/shape/25r.png"",""img/shape/73o.png"",""img/shape/86g.png"",""img/shape/44b.png""]","[0,1,2,3]","true",""
"","","","","","video-button-response","25","245961","0.0-4.0-1.0-1.0-0.0-1.6","NLP","C2","o2","NLP_C2","C3","null","null","day-1","","[""video/trial_correct_C2.mp4""]","","","",""
"","","","","","html-button-response","26","248259","0.0-4.0-1.0-1.0-0.0-0.7","NLP","C2","o2","NLP_C2","C3","2296","2","day-1","","<img src=""img/char1_C2.png""></img>","[""img/shape/13b.png"",""img/shape/74r.png"",""img/shape/46o.png"",""img/shape/85g.png""]","[]","false",""
"","","","","","video-button-response","27","249737","0.0-4.0-1.0-1.0-0.0-1.7","NLP","C2","o2","NLP_C2","C3","null","null","day-1","","[""video/trial_wrong_C2.mp4""]","","","",""
"","","","","","video-button-response","28","265204","0.0-4.0-1.0-2.0","NLP","C2","o2","NLP_C2","C3","null","null","night1","","[""video/night1_NLP_C2.mp4""]","","","",""
"","","","","","html-button-response","29","270051","0.0-4.0-2.0-1.0-0.0-0.0","NLP","C2","o2","NLP_C2","C3","4845","1","day-2","","<img src=""img/char1_C2.png""></img>","[""img/shape/75g.png"",""img/shape/63o.png"",""img/shape/86r.png"",""img/shape/54b.png""]","[0,1,2,3]","true",""
"","","","","","video-button-response","30","271518","0.0-4.0-2.0-1.0-0.0-1.0","NLP","C2","o2","NLP_C2","C3","null","null","day-2","","[""video/trial_correct_C2.mp4""]","","","",""
"","","","","","html-button-response","31","273915","0.0-4.0-2.0-1.0-0.0-0.1","NLP","C2","o2","NLP_C2","C3","2396","3","day-2","","<img src=""img/char1_C2.png""></img>","[""img/shape/15r.png"",""img/shape/34b.png"",""img/shape/66g.png"",""img/shape/23o.png""]","[0,1,2,3]","true",""
"","","","","","video-button-response","32","275401","0.0-4.0-2.0-1.0-0.0-1.1","NLP","C2","o2","NLP_C2","C3","null","null","day-2","","[""video/trial_correct_C2.mp4""]","","","",""
"","","","","","html-button-response","33","277515","0.0-4.0-2.0-1.0-0.0-0.2","NLP","C2","o2","NLP_C2","C3","2112","2","day-2","","<img src=""img/char1_C2.png""></img>","[""img/shape/55r.png"",""img/shape/26g.png"",""img/shape/43b.png"",""img/shape/74o.png""]","[0,1,2,3]","true",""
"","","","","","video-button-response","34","279029","0.0-4.0-2.0-1.0-0.0-1.2","NLP","C2","o2","NLP_C2","C3","null","null","day-2","","[""video/trial_correct_C2.mp4""]","","","",""
"","","","","","html-button-response","35","280604","0.0-4.0-2.0-1.0-0.0-0.3","NLP","C2","o2","NLP_C2","C3","1573","2","day-2","","<img src=""img/char1_C2.png""></img>","[""img/shape/25b.png"",""img/shape/14o.png"",""img/shape/36g.png"",""img/shape/53r.png""]","[0,1,2,3]","true",""
"","","","","","video-button-response","36","282078","0.0-4.0-2.0-1.0-0.0-1.3","NLP","C2","o2","NLP_C2","C3","null","null","day-2","","[""video/trial_correct_C2.mp4""]","","","",""
"","","","","","html-button-response","37","283347","0.0-4.0-2.0-1.0-0.0-0.4","NLP","C2","o2","NLP_C2","C3","1268","0","day-2","","<img src=""img/char1_C2.png""></img>","[""img/shape/53g.png"",""img/shape/46r.png"",""img/shape/85o.png"",""img/shape/74b.png""]","[0,1,2,3]","true",""
"","","","","","video-button-response","38","284852","0.0-4.0-2.0-1.0-0.0-1.4","NLP","C2","o2","NLP_C2","C3","null","null","day-2","","[""video/trial_correct_C2.mp4""]","","","",""
"","","","","","html-button-response","39","285359","0.0-4.0-2.0-1.0-0.0-0.5","NLP","C2","o2","NLP_C2","C3","506","1","day-2","","<img src=""img/char1_C2.png""></img>","[""img/shape/35g.png"",""img/shape/16b.png"",""img/shape/73r.png"",""img/shape/54o.png""]","[]","false",""
"","","","","","video-button-response","40","286836","0.0-4.0-2.0-1.0-0.0-1.5","NLP","C2","o2","NLP_C2","C3","null","null","day-2","","[""video/trial_wrong_C2.mp4""]","","","",""
"","","","","","html-button-response","41","288322","0.0-4.0-2.0-1.0-0.0-0.6","NLP","C2","o2","NLP_C2","C3","1485","1","day-2","","<img src=""img/char1_C2.png""></img>","[""img/shape/44g.png"",""img/shape/33r.png"",""img/shape/65b.png"",""img/shape/16o.png""]","[0,1,2,3]","true",""
"","","","","","video-button-response","42","289801","0.0-4.0-2.0-1.0-0.0-1.6","NLP","C2","o2","NLP_C2","C3","null","null","day-2","","[""video/trial_correct_C2.mp4""]","","","",""
"","","","","","html-button-response","43","290916","0.0-4.0-2.0-1.0-0.0-0.7","NLP","C2","o2","NLP_C2","C3","1114","3","day-2","","<img src=""img/char1_C2.png""></img>","[""img/shape/64r.png"",""img/shape/13g.png"",""img/shape/56b.png"",""img/shape/45o.png""]","[]","false",""
"","","","","","video-button-response","44","292425","0.0-4.0-2.0-1.0-0.0-1.7","NLP","C2","o2","NLP_C2","C3","null","null","day-2","","[""video/trial_wrong_C2.mp4""]","","","",""
"","","","","","video-button-response","45","307934","0.0-4.0-2.0-2.0","NLP","C2","o2","NLP_C2","C3","null","null","night2","","[""video/night2_NLP_C2.mp4""]","","","",""
"","","","","","html-button-response","46","311915","0.0-4.0-3.0-0.0-0.0","NLP","C2","o2","NLP_C2","C3","3978","3","day-3","","<img src=""img/char1_C2.png""></img>","[""img/shape/16g.png"",""img/shape/54r.png"",""img/shape/73b.png"",""img/shape/35o.png""]","[]","false",""
"","","","","","video-button-response","47","313396","0.0-4.0-3.0-0.0-1.0","NLP","C2","o2","NLP_C2","C3","null","null","day-3","","[""video/trial_wrong_C2.mp4""]","","","",""
"","","","","","html-button-response","48","315715","0.0-4.0-3.0-0.0-0.1","NLP","C2","o2","NLP_C2","C3","2318","0","day-3","","<img src=""img/char1_C2.png""></img>","[""img/shape/45r.png"",""img/shape/13o.png"",""img/shape/24b.png"",""img/shape/56g.png""]","[]","false",""
"","","","","","video-button-response","49","317193","0.0-4.0-3.0-0.0-1.1","NLP","C2","o2","NLP_C2","C3","null","null","day-3","","[""video/trial_wrong_C2.mp4""]","","","",""
"","","","","","html-button-response","50","319933","0.0-4.0-3.0-0.0-0.2","NLP","C2","o2","NLP_C2","C3","2739","1","day-3","","<img src=""img/char1_C2.png""></img>","[""img/shape/15b.png"",""img/shape/83g.png"",""img/shape/44r.png"",""img/shape/26o.png""]","[0,1,2,3]","true",""
"","","","","","video-button-response","51","321419","0.0-4.0-3.0-0.0-1.2","NLP","C2","o2","NLP_C2","C3","null","null","day-3","","[""video/trial_correct_C2.mp4""]","","","",""
"","","","","","html-button-response","52","322949","0.0-4.0-3.0-0.0-0.3","NLP","C2","o2","NLP_C2","C3","1530","1","day-3","","<img src=""img/char1_C2.png""></img>","[""img/shape/75o.png"",""img/shape/23r.png"",""img/shape/34g.png"",""img/shape/86b.png""]","[0,1,2,3]","true",""
"","","","","","video-button-response","53","324469","0.0-4.0-3.0-0.0-1.3","NLP","C2","o2","NLP_C2","C3","null","null","day-3","","[""video/trial_correct_C2.mp4""]","","","",""
"","","","","","html-button-response","54","325262","0.0-4.0-3.0-0.0-0.4","NLP","C2","o2","NLP_C2","C3","792","2","day-3","","<img src=""img/char1_C2.png""></img>","[""img/shape/33b.png"",""img/shape/25g.png"",""img/shape/14r.png"",""img/shape/66o.png""]","[0,1,2,3]","true",""
"","","","","","video-button-response","55","326751","0.0-4.0-3.0-0.0-1.4","NLP","C2","o2","NLP_C2","C3","null","null","day-3","","[""video/trial_correct_C2.mp4""]","","","",""
"","","","","","html-button-response","56","327174","0.0-4.0-3.0-0.0-0.5","NLP","C2","o2","NLP_C2","C3","422","1","day-3","","<img src=""img/char1_C2.png""></img>","[""img/shape/85r.png"",""img/shape/46b.png"",""img/shape/53o.png"",""img/shape/24g.png""]","[0,1,2,3]","true",""
"","","","","","video-button-response","57","328651","0.0-4.0-3.0-0.0-1.5","NLP","C2","o2","NLP_C2","C3","null","null","day-3","","[""video/trial_correct_C2.mp4""]","","","",""
"","","","","","html-button-response","58","329148","0.0-4.0-3.0-0.0-0.6","NLP","C2","o2","NLP_C2","C3","496","1","day-3","","<img src=""img/char1_C2.png""></img>","[""img/shape/55b.png"",""img/shape/74g.png"",""img/shape/63r.png"",""img/shape/36o.png""]","[0,1,2,3]","true",""
"","","","","","video-button-response","59","330633","0.0-4.0-3.0-0.0-1.6","NLP","C2","o2","NLP_C2","C3","null","null","day-3","","[""video/trial_correct_C2.mp4""]","","","",""
"","","","","","html-button-response","60","331254","0.0-4.0-3.0-0.0-0.7","NLP","C2","o2","NLP_C2","C3","621","0","day-3","","<img src=""img/char1_C2.png""></img>","[""img/shape/35r.png"",""img/shape/43g.png"",""img/shape/76o.png"",""img/shape/64b.png""]","[0,1,2,3]","true",""
"","","","","","video-button-response","61","332746","0.0-4.0-3.0-0.0-1.7","NLP","C2","o2","NLP_C2","C3","null","null","day-3","","[""video/trial_correct_C2.mp4""]","","","",""
"","","","","","video-button-response","62","355956","0.0-4.0-3.0-1.0","NLP","C2","o2","NLP_C2","C3","null","null","night3","","[""video/night3_NLP_C2.mp4""]","","","",""
"","","","","","html-button-response","63","358609","0.0-5.0-0.0","NLP","C2","o2","NLP_C2","C3","2652","0","exit-survey","","<p>Now I have some questions for you.</p>","","","",""
"","","","","","survey-multi-choice","64","365825","0.0-5.0-1.0","NLP","C2","o2","NLP_C2","C3","7212","{""liked"":""A little""}","exit-survey","","","","","","[0]"
"","","","","","survey-multi-choice","65","376285","0.0-5.0-2.0","NLP","C2","o2","NLP_C2","C3","10454","{""learned"":""A little""}","exit-survey","","","","","","[0]"
"","","","","","survey-text","66","389142","0.0-5.0-3.0","NLP","C2","o2","NLP_C2","C3","12848","{""learned-q"":""because didn't really feed it a lot""}","exit-survey","","","","","",""
"","","","","","survey-multi-choice","67","397620","0.0-5.0-4.0","NLP","C2","o2","NLP_C2","C3","8476","{""stars"":""Same each day""}","exit-survey","","","","","","[0]"
"","","","","","html-button-response","68","405652","0.0-6.0-0.0","NLP","C2","o2","NLP_C2","C3","8029","0","options","","<p>Now, we’re going to choose a new game to play.</p><p>We’re going to look at different games, and for each set of games</p><p>you’ll choose the one you want to play the most.</p><p>Here are the options:</p>","[""Continue""]","","",""
"","","","","","video-button-response","69","418850","0.0-6.0-1.0","NLP","C2","o2","NLP_C2","C3","null","null","options","","[""video/opt/optA_o2_C2.mp4""]","[]","","",""
"","","","","","html-button-response2","70","423186","0.0-6.0-2.0","NLP","C2","o2","NLP_C2","C3","4334","1","options","","","[""img/opt/optA3.png"",""img/opt/optA4.png"",""img/opt/optA1.png""]","","",""
"","","","","","survey-text","71","431507","0.0-6.0-3.0","NLP","C2","o2","NLP_C2","C3","8316","{""choice-1"":""didn't do monkey before""}","options","","","","","",""
"","","","","","html-button-response","72","433901","0.0-6.0-4.0","NLP","C2","o2","NLP_C2","C3","2391","0","options","","<p>Alright, here are the next three options:</p>","[""Continue""]","","",""
"","","","","","video-button-response","73","447077","0.0-6.0-5.0","NLP","C2","o2","NLP_C2","C3","null","null","options","","[""video/opt/optB_o2_C2.mp4""]","[]","","",""
"","","","","","html-button-response2","74","450859","0.0-6.0-6.0","NLP","C2","o2","NLP_C2","C3","3781","0","options","","","[""img/opt/optB4.png"",""img/opt/optB1.png"",""img/opt/optB3.png""]","","",""
"","","","","","survey-text","75","460578","0.0-6.0-7.0","NLP","C2","o2","NLP_C2","C3","9716","{""choice-2"":""because didn't do alien before""}","options","","","","","",""
"","","","","","html-button-response","76","463039","0.0-6.0-8.0","NLP","C2","o2","NLP_C2","C3","2459","0","options","","<p>Alright, here are the last three options:</p>","[""Continue""]","","",""
"","","","","","video-button-response","77","476226","0.0-6.0-9.0","NLP","C2","o2","NLP_C2","C3","null","null","options","","[""video/opt/optC_o2_C2.mp4""]","[]","","",""
"","","","","","html-button-response2","78","481560","0.0-6.0-10.0","NLP","C2","o2","NLP_C2","C3","5332","1","options","","","[""img/opt/optC1.png"",""img/opt/optC3.png"",""img/opt/optC4.png""]","","",""
"","","","","","survey-text","79","488603","0.0-6.0-11.0","NLP","C2","o2","NLP_C2","C3","7037","{""choice-3"":""because didnt do hiding before""}","options","","","","","",""
"","","","","","html-button-response","80","490423","0.0-7.0-0.0","NLP","C2","o2","NLP_C2","C3","1816","0","","","<p>Let's play the next game!</p>","","","",""
"","","","","","video-button-response","81","508368","0.0-7.0-2.0-0.0-0.0-0.0-0.0-0.0","NLP","C2","o2","NLP_C2","C3","null","null","hiding_demo","","[""video/bush_inst_C3.mp4""]","","","",""
"","","","","","html-button-response2","82","509885","0.0-7.0-2.0-0.0-0.0-0.0-0.0-1.0","NLP","C2","o2","NLP_C2","C3","1516","1","hiding_demo","","","","","",""
"","","","","","video-button-response","83","512443","0.0-7.0-2.0-0.0-0.0-0.0-0.0-2.0","NLP","C2","o2","NLP_C2","C3","null","null","hiding_demo","","[""video/bush_left_C3.mp4""]","","","",""
"","","","","","html-button-response","84","516541","0.0-7.0-2.0-0.0-0.0-0.0-0.0-3.0","NLP","C2","o2","NLP_C2","C3","4096","1","hiding_demo","","<p> Do you want to hear the instructions again or are you ready to play the game?</p>","","","",""
"","","","","","html-button-response2","85","521514","0.0-7.0-2.0-0.0-1.0-0.0-0.0","NLP","C2","o2","NLP_C2","C3","4970","2","hiding_1","","","","","",""
"","","","","","video-button-response","86","524116","0.0-7.0-2.0-0.0-1.0-0.0-1.0","NLP","C2","o2","NLP_C2","C3","null","null","hiding_1","","[""video/bush_middle_C3.mp4""]","","","",""
"","","","","","html-button-response2","87","525611","0.0-7.0-2.0-0.0-1.0-1.0-0.0","NLP","C2","o2","NLP_C2","C3","1493","0","hiding_1","","","","","",""
"","","","","","video-button-response","88","528190","0.0-7.0-2.0-0.0-1.0-1.0-1.0","NLP","C2","o2","NLP_C2","C3","null","null","hiding_1","","[""video/bush_middle_C3.mp4""]","","","",""
"","","","","","html-button-response2","89","529376","0.0-7.0-2.0-0.0-1.0-2.0-0.0","NLP","C2","o2","NLP_C2","C3","1184","1","hiding_1","","","","","",""
"","","","","","video-button-response","90","531965","0.0-7.0-2.0-0.0-1.0-2.0-1.0","NLP","C2","o2","NLP_C2","C3","null","null","hiding_1","","[""video/bush_left_C3.mp4""]","","","",""
"","","","","","html-button-response2","91","532538","0.0-7.0-2.0-0.0-1.0-3.0-0.0","NLP","C2","o2","NLP_C2","C3","571","2","hiding_1","","","","","",""
"","","","","","video-button-response","92","535101","0.0-7.0-2.0-0.0-1.0-3.0-1.0","NLP","C2","o2","NLP_C2","C3","null","null","hiding_1","","[""video/bush_middle_C3.mp4""]","","","",""
"","","","","","html-button-response2","93","538941","0.0-7.0-2.0-0.0-1.0-4.0-0.0","NLP","C2","o2","NLP_C2","C3","3839","1","hiding_1","","","","","",""
"","","","","","video-button-response","94","541501","0.0-7.0-2.0-0.0-1.0-4.0-1.0","NLP","C2","o2","NLP_C2","C3","null","null","hiding_1","","[""video/bush_middle_C3.mp4""]","","","",""
"","","","","","html-button-response2","95","542594","0.0-7.0-2.0-0.0-1.0-5.0-0.0","NLP","C2","o2","NLP_C2","C3","1091","0","hiding_1","","","","","",""
"","","","","","video-button-response","96","545171","0.0-7.0-2.0-0.0-1.0-5.0-1.0","NLP","C2","o2","NLP_C2","C3","null","null","hiding_1","","[""video/bush_middle_C3.mp4""]","","","",""
"","","","","","html-button-response2","97","545911","0.0-7.0-2.0-0.0-1.0-6.0-0.0","NLP","C2","o2","NLP_C2","C3","739","2","hiding_1","","","","","",""
"","","","","","video-button-response","98","548476","0.0-7.0-2.0-0.0-1.0-6.0-1.0","NLP","C2","o2","NLP_C2","C3","null","null","hiding_1","","[""video/bush_right_C3.mp4""]","","","",""
"","","","","","html-button-response2","99","549184","0.0-7.0-2.0-0.0-1.0-7.0-0.0","NLP","C2","o2","NLP_C2","C3","705","1","hiding_1","","","","","",""
"","","","","","video-button-response","100","551761","0.0-7.0-2.0-0.0-1.0-7.0-1.0","NLP","C2","o2","NLP_C2","C3","null","null","hiding_1","","[""video/bush_right_C3.mp4""]","","","",""
"","","","","","html-button-response2","101","552577","0.0-7.0-2.0-0.0-2.0-0.0-0.0","NLP","C2","o2","NLP_C2","C3","814","2","hiding_2","","","","","",""
"","","","","","video-button-response","102","555133","0.0-7.0-2.0-0.0-2.0-0.0-1.0","NLP","C2","o2","NLP_C2","C3","null","null","hiding_2","","[""video/bush_right_C3.mp4""]","","","",""
"","","","","","html-button-response2","103","555590","0.0-7.0-2.0-0.0-2.0-1.0-0.0","NLP","C2","o2","NLP_C2","C3","456","2","hiding_2","","","","","",""
"","","","","","video-button-response","104","558142","0.0-7.0-2.0-0.0-2.0-1.0-1.0","NLP","C2","o2","NLP_C2","C3","null","null","hiding_2","","[""video/bush_left_C3.mp4""]","","","",""
"","","","","","html-button-response2","105","558820","0.0-7.0-2.0-0.0-2.0-2.0-0.0","NLP","C2","o2","NLP_C2","C3","677","0","hiding_2","","","","","",""
"","","","","","video-button-response","106","561405","0.0-7.0-2.0-0.0-2.0-2.0-1.0","NLP","C2","o2","NLP_C2","C3","null","null","hiding_2","","[""video/bush_left_C3.mp4""]","","","",""
"","","","","","html-button-response2","107","563648","0.0-7.0-2.0-0.0-2.0-3.0-0.0","NLP","C2","o2","NLP_C2","C3","2242","0","hiding_2","","","","","",""
"","","","","","video-button-response","108","566269","0.0-7.0-2.0-0.0-2.0-3.0-1.0","NLP","C2","o2","NLP_C2","C3","null","null","hiding_2","","[""video/bush_right_C3.mp4""]","","","",""
"","","","","","html-button-response2","109","570372","0.0-7.0-2.0-0.0-2.0-4.0-0.0","NLP","C2","o2","NLP_C2","C3","4102","2","hiding_2","","","","","",""
"","","","","","video-button-response","110","572949","0.0-7.0-2.0-0.0-2.0-4.0-1.0","NLP","C2","o2","NLP_C2","C3","null","null","hiding_2","","[""video/bush_left_C3.mp4""]","","","",""
"","","","","","html-button-response2","111","579888","0.0-7.0-2.0-0.0-2.0-5.0-0.0","NLP","C2","o2","NLP_C2","C3","6938","1","hiding_2","","","","","",""
"","","","","","video-button-response","112","582440","0.0-7.0-2.0-0.0-2.0-5.0-1.0","NLP","C2","o2","NLP_C2","C3","null","null","hiding_2","","[""video/bush_middle_C3.mp4""]","","","",""
"","","","","","html-button-response2","113","583639","0.0-7.0-2.0-0.0-2.0-6.0-0.0","NLP","C2","o2","NLP_C2","C3","1197","2","hiding_2","","","","","",""
"","","","","","video-button-response","114","586215","0.0-7.0-2.0-0.0-2.0-6.0-1.0","NLP","C2","o2","NLP_C2","C3","null","null","hiding_2","","[""video/bush_middle_C3.mp4""]","","","",""
"","","","","","html-button-response2","115","587696","0.0-7.0-2.0-0.0-2.0-7.0-0.0","NLP","C2","o2","NLP_C2","C3","1480","0","hiding_2","","","","","",""
"","","","","","video-button-response","116","590290","0.0-7.0-2.0-0.0-2.0-7.0-1.0","NLP","C2","o2","NLP_C2","C3","null","null","hiding_2","","[""video/bush_left_C3.mp4""]","","","",""
"","","","","","html-button-response2","117","592880","0.0-7.0-2.0-0.0-3.0-0.0-0.0","NLP","C2","o2","NLP_C2","C3","2589","1","hiding_3","","","","","",""
"","","","","","video-button-response","118","595452","0.0-7.0-2.0-0.0-3.0-0.0-1.0","NLP","C2","o2","NLP_C2","C3","null","null","hiding_3","","[""video/bush_middle_C3.mp4""]","","","",""
"","","","","","html-button-response2","119","597773","0.0-7.0-2.0-0.0-3.0-1.0-0.0","NLP","C2","o2","NLP_C2","C3","2320","2","hiding_3","","","","","",""
"","","","","","video-button-response","120","600337","0.0-7.0-2.0-0.0-3.0-1.0-1.0","NLP","C2","o2","NLP_C2","C3","null","null","hiding_3","","[""video/bush_right_C3.mp4""]","","","",""
"","","","","","html-button-response2","121","601898","0.0-7.0-2.0-0.0-3.0-2.0-0.0","NLP","C2","o2","NLP_C2","C3","1560","0","hiding_3","","","","","",""
"","","","","","video-button-response","122","604498","0.0-7.0-2.0-0.0-3.0-2.0-1.0","NLP","C2","o2","NLP_C2","C3","null","null","hiding_3","","[""video/bush_left_C3.mp4""]","","","",""
"","","","","","html-button-response2","123","605555","0.0-7.0-2.0-0.0-3.0-3.0-0.0","NLP","C2","o2","NLP_C2","C3","1056","1","hiding_3","","","","","",""
"","","","","","video-button-response","124","608124","0.0-7.0-2.0-0.0-3.0-3.0-1.0","NLP","C2","o2","NLP_C2","C3","null","null","hiding_3","","[""video/bush_middle_C3.mp4""]","","","",""
"","","","","","html-button-response2","125","610611","0.0-7.0-2.0-0.0-3.0-4.0-0.0","NLP","C2","o2","NLP_C2","C3","2485","2","hiding_3","","","","","",""
"","","","","","video-button-response","126","613186","0.0-7.0-2.0-0.0-3.0-4.0-1.0","NLP","C2","o2","NLP_C2","C3","null","null","hiding_3","","[""video/bush_right_C3.mp4""]","","","",""
"","","","","","html-button-response2","127","614378","0.0-7.0-2.0-0.0-3.0-5.0-0.0","NLP","C2","o2","NLP_C2","C3","1192","1","hiding_3","","","","","",""
"","","","","","video-button-response","128","616936","0.0-7.0-2.0-0.0-3.0-5.0-1.0","NLP","C2","o2","NLP_C2","C3","null","null","hiding_3","","[""video/bush_middle_C3.mp4""]","","","",""
"","","","","","html-button-response2","129","619829","0.0-7.0-2.0-0.0-3.0-6.0-0.0","NLP","C2","o2","NLP_C2","C3","2892","0","hiding_3","","","","","",""
"","","","","","video-button-response","130","622398","0.0-7.0-2.0-0.0-3.0-6.0-1.0","NLP","C2","o2","NLP_C2","C3","null","null","hiding_3","","[""video/bush_right_C3.mp4""]","","","",""
"","","","","","html-button-response2","131","623500","0.0-7.0-2.0-0.0-3.0-7.0-0.0","NLP","C2","o2","NLP_C2","C3","1102","1","hiding_3","","","","","",""
"","","","","","video-button-response","132","626065","0.0-7.0-2.0-0.0-3.0-7.0-1.0","NLP","C2","o2","NLP_C2","C3","null","null","hiding_3","","[""video/bush_right_C3.mp4""]","","","",""
"","","","","","html-button-response","133","629246","0.0-7.0-2.0-0.0-4.0-0.0","NLP","C2","o2","NLP_C2","C3","3179","0","followup-survey","","<p>Now I have some questions for you.</p>","","","",""
"","","","","","survey-multi-choice","134","635364","0.0-7.0-2.0-0.0-4.0-1.0","NLP","C2","o2","NLP_C2","C3","6117","{""liked"":""A little""}","followup-survey","","","","","","[0]"
"","","","","","survey-multi-choice","135","642611","0.0-7.0-2.0-0.0-4.0-2.0","NLP","C2","o2","NLP_C2","C3","7240","{""learned"":""A little""}","followup-survey","","","","","","[0]"
"","","","","","survey-text","136","651741","0.0-7.0-2.0-0.0-4.0-3.0","NLP","C2","o2","NLP_C2","C3","9123","{""learned-q"":""didn't find it a lot""}","followup-survey","","","","","",""
"","","","","","survey-multi-choice","137","662038","0.0-7.0-2.0-0.0-4.0-4.0","NLP","C2","o2","NLP_C2","C3","10295","{""guesses"":""Same""}","followup-survey","","","","","","[0]"
