"success","timeout","failed_images","failed_audio","failed_video","trial_type","trial_index","time_elapsed","internal_node_id","condition","counterbalancing","order","version","followup","rt","response","task_part","accuracy","stimulus","choices","correct_response","correct","question_order"
"true","false","[]","[]","[]","preload","0","3","0.0-0.0","NLP","C1","o2","NLP_C1","C4","","","","","","","","",""
"","","","","","survey-text","1","110928","0.0-1.0","NLP","C1","o2","NLP_C1","C4","110898","{""participant_name"":""Hunter"",""participant_ID"":""003""}","id-question","","","","","",""
"","","","","","survey","2","120883","0.0-2.0","NLP","C1","o2","NLP_C1","C4","9890","{""condition"":""NLP"",""counterbalancing"":""1"",""order"":2}","version","[]","","","","",""
"true","","","","","fullscreen","3","129183","0.0-3.0","NLP","C1","o2","NLP_C1","C4","","","fullscreen","","","","","",""
"","","","","","video-button-response","4","138759","0.0-4.0-0.0-0.0-0.0-0.0","NLP","C1","o2","NLP_C1","C4","null","null","demo","","[""video/shape_inst1_C1.mp4""]","","","",""
"","","","","","video-button-response","5","152749","0.0-4.0-0.0-0.0-0.0-1.0","NLP","C1","o2","NLP_C1","C4","13988","0","demo","","[""video/shape_inst2_C1.mp4""]","","","",""
"","","","","","video-button-response","6","154225","0.0-4.0-0.0-0.0-0.0-2.0","NLP","C1","o2","NLP_C1","C4","null","null","demo","","[""video/trial_correct_C1.mp4""]","","","",""
"","","","","","video-button-response","7","161736","0.0-4.0-0.0-0.0-0.0-3.0","NLP","C1","o2","NLP_C1","C4","7508","0","demo","","[""video/shape_inst3_C1.mp4""]","","","",""
"","","","","","video-button-response","8","163227","0.0-4.0-0.0-0.0-0.0-4.0","NLP","C1","o2","NLP_C1","C4","null","null","demo","","[""video/trial_wrong_C1.mp4""]","","","",""
"","","","","","video-button-response","9","173147","0.0-4.0-0.0-0.0-0.0-5.0","NLP","C1","o2","NLP_C1","C4","null","null","demo","","[""video/shape_inst4_C1.mp4""]","","","",""
"","","","","","video-button-response","10","184455","0.0-4.0-0.0-0.0-0.0-6.0","NLP","C1","o2","NLP_C1","C4","null","null","demo","","[""video/shape_inst5_C1.mp4""]","","","",""
"","","","","","html-button-response","11","189609","0.0-4.0-0.0-0.0-0.0-7.0","NLP","C1","o2","NLP_C1","C4","5153","1","demo","","<p> Do you want to hear the instructions again or are you ready to play the game?</p>","","","",""
"","","","","","html-button-response","12","197303","0.0-4.0-1.0-1.0-0.0-0.0","NLP","C1","o2","NLP_C1","C4","7692","3","day-1","","<img src=""img/char1_C1.png""></img>","[""img/shape/13b.png"",""img/shape/74r.png"",""img/shape/46o.png"",""img/shape/85g.png""]","[]","false",""
"","","","","","video-button-response","13","198805","0.0-4.0-1.0-1.0-0.0-1.0","NLP","C1","o2","NLP_C1","C4","null","null","day-1","","[""video/trial_wrong_C1.mp4""]","","","",""
"","","","","","html-button-response","14","207236","0.0-4.0-1.0-1.0-0.0-0.1","NLP","C1","o2","NLP_C1","C4","8428","0","day-1","","<img src=""img/char1_C1.png""></img>","[""img/shape/25r.png"",""img/shape/73o.png"",""img/shape/86g.png"",""img/shape/44b.png""]","[0,1,2,3]","true",""
"","","","","","video-button-response","15","208722","0.0-4.0-1.0-1.0-0.0-1.1","NLP","C1","o2","NLP_C1","C4","null","null","day-1","","[""video/trial_correct_C1.mp4""]","","","",""
"","","","","","html-button-response","16","216370","0.0-4.0-1.0-1.0-0.0-0.2","NLP","C1","o2","NLP_C1","C4","7646","3","day-1","","<img src=""img/char1_C1.png""></img>","[""img/shape/34o.png"",""img/shape/45g.png"",""img/shape/26b.png"",""img/shape/83r.png""]","[0,1,2,3]","true",""
"","","","","","video-button-response","17","217853","0.0-4.0-1.0-1.0-0.0-1.2","NLP","C1","o2","NLP_C1","C4","null","null","day-1","","[""video/trial_correct_C1.mp4""]","","","",""
"","","","","","html-button-response","18","223042","0.0-4.0-1.0-1.0-0.0-0.3","NLP","C1","o2","NLP_C1","C4","5188","1","day-1","","<img src=""img/char1_C1.png""></img>","[""img/shape/43o.png"",""img/shape/65r.png"",""img/shape/54g.png"",""img/shape/36b.png""]","[0,1,2,3]","true",""
"","","","","","video-button-response","19","224530","0.0-4.0-1.0-1.0-0.0-1.3","NLP","C1","o2","NLP_C1","C4","null","null","day-1","","[""video/trial_correct_C1.mp4""]","","","",""
"","","","","","html-button-response","20","227242","0.0-4.0-1.0-1.0-0.0-0.4","NLP","C1","o2","NLP_C1","C4","2711","3","day-1","","<img src=""img/char1_C1.png""></img>","[""img/shape/35b.png"",""img/shape/64o.png"",""img/shape/23g.png"",""img/shape/16r.png""]","[]","false",""
"","","","","","video-button-response","21","228712","0.0-4.0-1.0-1.0-0.0-1.4","NLP","C1","o2","NLP_C1","C4","null","null","day-1","","[""video/trial_wrong_C1.mp4""]","","","",""
"","","","","","html-button-response","22","237952","0.0-4.0-1.0-1.0-0.0-0.5","NLP","C1","o2","NLP_C1","C4","9239","0","day-1","","<img src=""img/char1_C1.png""></img>","[""img/shape/43r.png"",""img/shape/15g.png"",""img/shape/66b.png"",""img/shape/24o.png""]","[0,1,2,3]","true",""
"","","","","","video-button-response","23","239454","0.0-4.0-1.0-1.0-0.0-1.5","NLP","C1","o2","NLP_C1","C4","null","null","day-1","","[""video/trial_correct_C1.mp4""]","","","",""
"","","","","","html-button-response","24","244063","0.0-4.0-1.0-1.0-0.0-0.6","NLP","C1","o2","NLP_C1","C4","4608","2","day-1","","<img src=""img/char1_C1.png""></img>","[""img/shape/14g.png"",""img/shape/33o.png"",""img/shape/56r.png"",""img/shape/75b.png""]","[0,1,2,3]","true",""
"","","","","","video-button-response","25","245533","0.0-4.0-1.0-1.0-0.0-1.6","NLP","C1","o2","NLP_C1","C4","null","null","day-1","","[""video/trial_correct_C1.mp4""]","","","",""
"","","","","","html-button-response","26","249378","0.0-4.0-1.0-1.0-0.0-0.7","NLP","C1","o2","NLP_C1","C4","3844","3","day-1","","<img src=""img/char1_C1.png""></img>","[""img/shape/63g.png"",""img/shape/76b.png"",""img/shape/15o.png"",""img/shape/34r.png""]","[0,1,2,3]","true",""
"","","","","","video-button-response","27","250846","0.0-4.0-1.0-1.0-0.0-1.7","NLP","C1","o2","NLP_C1","C4","null","null","day-1","","[""video/trial_correct_C1.mp4""]","","","",""
"","","","","","video-button-response","28","266357","0.0-4.0-1.0-2.0","NLP","C1","o2","NLP_C1","C4","null","null","night1","","[""video/night1_NLP_C1.mp4""]","","","",""
"","","","","","html-button-response","29","275958","0.0-4.0-2.0-1.0-0.0-0.0","NLP","C1","o2","NLP_C1","C4","9600","0","day-2","","<img src=""img/char1_C1.png""></img>","[""img/shape/55r.png"",""img/shape/26g.png"",""img/shape/43b.png"",""img/shape/74o.png""]","[0,1,2,3]","true",""
"","","","","","video-button-response","30","277427","0.0-4.0-2.0-1.0-0.0-1.0","NLP","C1","o2","NLP_C1","C4","null","null","day-2","","[""video/trial_correct_C1.mp4""]","","","",""
"","","","","","html-button-response","31","282704","0.0-4.0-2.0-1.0-0.0-0.1","NLP","C1","o2","NLP_C1","C4","5275","2","day-2","","<img src=""img/char1_C1.png""></img>","[""img/shape/15r.png"",""img/shape/34b.png"",""img/shape/66g.png"",""img/shape/23o.png""]","[0,1,2,3]","true",""
"","","","","","video-button-response","32","284190","0.0-4.0-2.0-1.0-0.0-1.1","NLP","C1","o2","NLP_C1","C4","null","null","day-2","","[""video/trial_correct_C1.mp4""]","","","",""
"","","","","","html-button-response","33","287422","0.0-4.0-2.0-1.0-0.0-0.2","NLP","C1","o2","NLP_C1","C4","3230","3","day-2","","<img src=""img/char1_C1.png""></img>","[""img/shape/25b.png"",""img/shape/14o.png"",""img/shape/36g.png"",""img/shape/53r.png""]","[0,1,2,3]","true",""
"","","","","","video-button-response","34","288905","0.0-4.0-2.0-1.0-0.0-1.2","NLP","C1","o2","NLP_C1","C4","null","null","day-2","","[""video/trial_correct_C1.mp4""]","","","",""
"","","","","","html-button-response","35","291555","0.0-4.0-2.0-1.0-0.0-0.3","NLP","C1","o2","NLP_C1","C4","2649","0","day-2","","<img src=""img/char1_C1.png""></img>","[""img/shape/64r.png"",""img/shape/13g.png"",""img/shape/56b.png"",""img/shape/45o.png""]","[]","false",""
"","","","","","video-button-response","36","293023","0.0-4.0-2.0-1.0-0.0-1.3","NLP","C1","o2","NLP_C1","C4","null","null","day-2","","[""video/trial_wrong_C1.mp4""]","","","",""
"","","","","","html-button-response","37","298083","0.0-4.0-2.0-1.0-0.0-0.4","NLP","C1","o2","NLP_C1","C4","5059","1","day-2","","<img src=""img/char1_C1.png""></img>","[""img/shape/53g.png"",""img/shape/46r.png"",""img/shape/85o.png"",""img/shape/74b.png""]","[0,1,2,3]","true",""
"","","","","","video-button-response","38","299550","0.0-4.0-2.0-1.0-0.0-1.4","NLP","C1","o2","NLP_C1","C4","null","null","day-2","","[""video/trial_correct_C1.mp4""]","","","",""
"","","","","","html-button-response","39","303565","0.0-4.0-2.0-1.0-0.0-0.5","NLP","C1","o2","NLP_C1","C4","4014","3","day-2","","<img src=""img/char1_C1.png""></img>","[""img/shape/35g.png"",""img/shape/16b.png"",""img/shape/73r.png"",""img/shape/54o.png""]","[]","false",""
"","","","","","video-button-response","40","305033","0.0-4.0-2.0-1.0-0.0-1.5","NLP","C1","o2","NLP_C1","C4","null","null","day-2","","[""video/trial_wrong_C1.mp4""]","","","",""
"","","","","","html-button-response","41","309625","0.0-4.0-2.0-1.0-0.0-0.6","NLP","C1","o2","NLP_C1","C4","4591","0","day-2","","<img src=""img/char1_C1.png""></img>","[""img/shape/75g.png"",""img/shape/63o.png"",""img/shape/86r.png"",""img/shape/54b.png""]","[0,1,2,3]","true",""
"","","","","","video-button-response","42","311092","0.0-4.0-2.0-1.0-0.0-1.6","NLP","C1","o2","NLP_C1","C4","null","null","day-2","","[""video/trial_correct_C1.mp4""]","","","",""
"","","","","","html-button-response","43","315156","0.0-4.0-2.0-1.0-0.0-0.7","NLP","C1","o2","NLP_C1","C4","4063","2","day-2","","<img src=""img/char1_C1.png""></img>","[""img/shape/44g.png"",""img/shape/33r.png"",""img/shape/65b.png"",""img/shape/16o.png""]","[0,1,2,3]","true",""
"","","","","","video-button-response","44","316638","0.0-4.0-2.0-1.0-0.0-1.7","NLP","C1","o2","NLP_C1","C4","null","null","day-2","","[""video/trial_correct_C1.mp4""]","","","",""
"","","","","","video-button-response","45","332105","0.0-4.0-2.0-2.0","NLP","C1","o2","NLP_C1","C4","null","null","night2","","[""video/night2_NLP_C1.mp4""]","","","",""
"","","","","","html-button-response","46","340229","0.0-4.0-3.0-0.0-0.0","NLP","C1","o2","NLP_C1","C4","8123","3","day-3","","<img src=""img/char1_C1.png""></img>","[""img/shape/75o.png"",""img/shape/23r.png"",""img/shape/34g.png"",""img/shape/86b.png""]","[0,1,2,3]","true",""
"","","","","","video-button-response","47","341726","0.0-4.0-3.0-0.0-1.0","NLP","C1","o2","NLP_C1","C4","null","null","day-3","","[""video/trial_correct_C1.mp4""]","","","",""
"","","","","","html-button-response","48","344760","0.0-4.0-3.0-0.0-0.1","NLP","C1","o2","NLP_C1","C4","3032","0","day-3","","<img src=""img/char1_C1.png""></img>","[""img/shape/33b.png"",""img/shape/25g.png"",""img/shape/14r.png"",""img/shape/66o.png""]","[0,1,2,3]","true",""
"","","","","","video-button-response","49","346228","0.0-4.0-3.0-0.0-1.1","NLP","C1","o2","NLP_C1","C4","null","null","day-3","","[""video/trial_correct_C1.mp4""]","","","",""
"","","","","","html-button-response","50","348789","0.0-4.0-3.0-0.0-0.2","NLP","C1","o2","NLP_C1","C4","2560","3","day-3","","<img src=""img/char1_C1.png""></img>","[""img/shape/35r.png"",""img/shape/43g.png"",""img/shape/76o.png"",""img/shape/64b.png""]","[0,1,2,3]","true",""
"","","","","","video-button-response","51","350260","0.0-4.0-3.0-0.0-1.2","NLP","C1","o2","NLP_C1","C4","null","null","day-3","","[""video/trial_correct_C1.mp4""]","","","",""
"","","","","","html-button-response","52","354005","0.0-4.0-3.0-0.0-0.3","NLP","C1","o2","NLP_C1","C4","3744","2","day-3","","<img src=""img/char1_C1.png""></img>","[""img/shape/16g.png"",""img/shape/54r.png"",""img/shape/73b.png"",""img/shape/35o.png""]","[]","false",""
"","","","","","video-button-response","53","355487","0.0-4.0-3.0-0.0-1.3","NLP","C1","o2","NLP_C1","C4","null","null","day-3","","[""video/trial_wrong_C1.mp4""]","","","",""
"","","","","","html-button-response","54","359705","0.0-4.0-3.0-0.0-0.4","NLP","C1","o2","NLP_C1","C4","4217","3","day-3","","<img src=""img/char1_C1.png""></img>","[""img/shape/85r.png"",""img/shape/46b.png"",""img/shape/53o.png"",""img/shape/24g.png""]","[0,1,2,3]","true",""
"","","","","","video-button-response","55","361182","0.0-4.0-3.0-0.0-1.4","NLP","C1","o2","NLP_C1","C4","null","null","day-3","","[""video/trial_correct_C1.mp4""]","","","",""
"","","","","","html-button-response","56","364872","0.0-4.0-3.0-0.0-0.5","NLP","C1","o2","NLP_C1","C4","3688","1","day-3","","<img src=""img/char1_C1.png""></img>","[""img/shape/15b.png"",""img/shape/83g.png"",""img/shape/44r.png"",""img/shape/26o.png""]","[0,1,2,3]","true",""
"","","","","","video-button-response","57","366345","0.0-4.0-3.0-0.0-1.5","NLP","C1","o2","NLP_C1","C4","null","null","day-3","","[""video/trial_correct_C1.mp4""]","","","",""
"","","","","","html-button-response","58","369408","0.0-4.0-3.0-0.0-0.6","NLP","C1","o2","NLP_C1","C4","3062","2","day-3","","<img src=""img/char1_C1.png""></img>","[""img/shape/55b.png"",""img/shape/74g.png"",""img/shape/63r.png"",""img/shape/36o.png""]","[0,1,2,3]","true",""
"","","","","","video-button-response","59","370889","0.0-4.0-3.0-0.0-1.6","NLP","C1","o2","NLP_C1","C4","null","null","day-3","","[""video/trial_correct_C1.mp4""]","","","",""
"","","","","","html-button-response","60","375888","0.0-4.0-3.0-0.0-0.7","NLP","C1","o2","NLP_C1","C4","4998","1","day-3","","<img src=""img/char1_C1.png""></img>","[""img/shape/45r.png"",""img/shape/13o.png"",""img/shape/24b.png"",""img/shape/56g.png""]","[]","false",""
"","","","","","video-button-response","61","377374","0.0-4.0-3.0-0.0-1.7","NLP","C1","o2","NLP_C1","C4","null","null","day-3","","[""video/trial_wrong_C1.mp4""]","","","",""
"","","","","","video-button-response","62","400777","0.0-4.0-3.0-1.0","NLP","C1","o2","NLP_C1","C4","null","null","night3","","[""video/night3_NLP_C1.mp4""]","","","",""
"","","","","","html-button-response","63","403995","0.0-5.0-0.0","NLP","C1","o2","NLP_C1","C4","3216","0","exit-survey","","<p>Now I have some questions for you.</p>","","","",""
"","","","","","survey-multi-choice","64","409494","0.0-5.0-1.0","NLP","C1","o2","NLP_C1","C4","5496","{""liked"":""A lot""}","exit-survey","","","","","","[0]"
"","","","","","survey-multi-choice","65","418510","0.0-5.0-2.0","NLP","C1","o2","NLP_C1","C4","9012","{""learned"":""A lot""}","exit-survey","","","","","","[0]"
"","","","","","survey-text","66","436626","0.0-5.0-3.0","NLP","C1","o2","NLP_C1","C4","18109","{""learned-q"":""how much the monster likes the shapes like stars and stuff""}","exit-survey","","","","","",""
"","","","","","survey-multi-choice","67","444864","0.0-5.0-4.0","NLP","C1","o2","NLP_C1","C4","8235","{""stars"":""Same each day""}","exit-survey","","","","","","[0]"
"","","","","","html-button-response","68","454383","0.0-6.0-0.0","NLP","C1","o2","NLP_C1","C4","9515","0","options","","<p>Now, we’re going to choose a new game to play.</p><p>We’re going to look at different games, and for each set of games</p><p>you’ll choose the one you want to play the most.</p><p>Here are the options:</p>","[""Continue""]","","",""
"","","","","","video-button-response","69","467585","0.0-6.0-1.0","NLP","C1","o2","NLP_C1","C4","null","null","options","","[""video/opt/optA_o2_C1.mp4""]","[]","","",""
"","","","","","html-button-response2","70","470919","0.0-6.0-2.0","NLP","C1","o2","NLP_C1","C4","3332","0","options","","","[""img/opt/optA2.png"",""img/opt/optA4.png"",""img/opt/optA1.png""]","","",""
"","","","","","survey-text","71","479654","0.0-6.0-3.0","NLP","C1","o2","NLP_C1","C4","8733","{""choice-1"":""because it looked fun""}","options","","","","","",""
"","","","","","html-button-response","72","482601","0.0-6.0-4.0","NLP","C1","o2","NLP_C1","C4","2943","0","options","","<p>Alright, here are the next three options:</p>","[""Continue""]","","",""
"","","","","","video-button-response","73","495782","0.0-6.0-5.0","NLP","C1","o2","NLP_C1","C4","null","null","options","","[""video/opt/optB_o2_C1.mp4""]","[]","","",""
"","","","","","html-button-response2","74","497896","0.0-6.0-6.0","NLP","C1","o2","NLP_C1","C4","2112","0","options","","","[""img/opt/optB4.png"",""img/opt/optB1.png"",""img/opt/optB2.png""]","","",""
"","","","","","survey-text","75","508650","0.0-6.0-7.0","NLP","C1","o2","NLP_C1","C4","10751","{""choice-2"":""because the ball was floating there""}","options","","","","","",""
"","","","","","html-button-response","76","511369","0.0-6.0-8.0","NLP","C1","o2","NLP_C1","C4","2716","0","options","","<p>Alright, here are the last three options:</p>","[""Continue""]","","",""
"","","","","","video-button-response","77","524552","0.0-6.0-9.0","NLP","C1","o2","NLP_C1","C4","null","null","options","","[""video/opt/optC_o2_C1.mp4""]","[]","","",""
"","","","","","html-button-response2","78","526495","0.0-6.0-10.0","NLP","C1","o2","NLP_C1","C4","1940","2","options","","","[""img/opt/optC2.png"",""img/opt/optC3.png"",""img/opt/optC4.png""]","","",""
"","","","","","survey-text","79","539792","0.0-6.0-11.0","NLP","C1","o2","NLP_C1","C4","13293","{""choice-3"":""because I think it might be easy because robot is pretty tall""}","options","","","","","",""
"","","","","","html-button-response","80","542239","0.0-7.0-0.0","NLP","C1","o2","NLP_C1","C4","2445","0","","","<p>Let's play the next game!</p>","","","",""
"","","","","","video-button-response","81","560153","0.0-7.0-2.0-0.0-0.0-0.0-0.0-0.0","NLP","C1","o2","NLP_C1","C4","null","null","hiding_demo","","[""video/bush_inst_C4.mp4""]","","","",""
"","","","","","html-button-response2","82","560795","0.0-7.0-2.0-0.0-0.0-0.0-0.0-1.0","NLP","C1","o2","NLP_C1","C4","641","1","hiding_demo","","","","","",""
"","","","","","video-button-response","83","563354","0.0-7.0-2.0-0.0-0.0-0.0-0.0-2.0","NLP","C1","o2","NLP_C1","C4","null","null","hiding_demo","","[""video/bush_left_C4.mp4""]","","","",""
"","","","","","html-button-response","84","567829","0.0-7.0-2.0-0.0-0.0-0.0-0.0-3.0","NLP","C1","o2","NLP_C1","C4","4474","1","hiding_demo","","<p> Do you want to hear the instructions again or are you ready to play the game?</p>","","","",""
"","","","","","html-button-response2","85","573130","0.0-7.0-2.0-0.0-1.0-0.0-0.0","NLP","C1","o2","NLP_C1","C4","5299","0","hiding_1","","","","","",""
"","","","","","video-button-response","86","575684","0.0-7.0-2.0-0.0-1.0-0.0-1.0","NLP","C1","o2","NLP_C1","C4","null","null","hiding_1","","[""video/bush_left_C4.mp4""]","","","",""
"","","","","","html-button-response2","87","579317","0.0-7.0-2.0-0.0-1.0-1.0-0.0","NLP","C1","o2","NLP_C1","C4","3631","2","hiding_1","","","","","",""
"","","","","","video-button-response","88","581871","0.0-7.0-2.0-0.0-1.0-1.0-1.0","NLP","C1","o2","NLP_C1","C4","null","null","hiding_1","","[""video/bush_left_C4.mp4""]","","","",""
"","","","","","html-button-response2","89","584142","0.0-7.0-2.0-0.0-1.0-2.0-0.0","NLP","C1","o2","NLP_C1","C4","2269","0","hiding_1","","","","","",""
"","","","","","video-button-response","90","586713","0.0-7.0-2.0-0.0-1.0-2.0-1.0","NLP","C1","o2","NLP_C1","C4","null","null","hiding_1","","[""video/bush_right_C4.mp4""]","","","",""
"","","","","","html-button-response2","91","593171","0.0-7.0-2.0-0.0-1.0-3.0-0.0","NLP","C1","o2","NLP_C1","C4","6458","0","hiding_1","","","","","",""
"","","","","","video-button-response","92","595739","0.0-7.0-2.0-0.0-1.0-3.0-1.0","NLP","C1","o2","NLP_C1","C4","null","null","hiding_1","","[""video/bush_middle_C4.mp4""]","","","",""
"","","","","","html-button-response2","93","598400","0.0-7.0-2.0-0.0-1.0-4.0-0.0","NLP","C1","o2","NLP_C1","C4","2661","2","hiding_1","","","","","",""
"","","","","","video-button-response","94","600965","0.0-7.0-2.0-0.0-1.0-4.0-1.0","NLP","C1","o2","NLP_C1","C4","null","null","hiding_1","","[""video/bush_left_C4.mp4""]","","","",""
"","","","","","html-button-response2","95","602527","0.0-7.0-2.0-0.0-1.0-5.0-0.0","NLP","C1","o2","NLP_C1","C4","1559","2","hiding_1","","","","","",""
"","","","","","video-button-response","96","605082","0.0-7.0-2.0-0.0-1.0-5.0-1.0","NLP","C1","o2","NLP_C1","C4","null","null","hiding_1","","[""video/bush_right_C4.mp4""]","","","",""
"","","","","","html-button-response2","97","606702","0.0-7.0-2.0-0.0-1.0-6.0-0.0","NLP","C1","o2","NLP_C1","C4","1619","1","hiding_1","","","","","",""
"","","","","","video-button-response","98","609263","0.0-7.0-2.0-0.0-1.0-6.0-1.0","NLP","C1","o2","NLP_C1","C4","null","null","hiding_1","","[""video/bush_right_C4.mp4""]","","","",""
"","","","","","html-button-response2","99","612726","0.0-7.0-2.0-0.0-1.0-7.0-0.0","NLP","C1","o2","NLP_C1","C4","3462","0","hiding_1","","","","","",""
"","","","","","video-button-response","100","615279","0.0-7.0-2.0-0.0-1.0-7.0-1.0","NLP","C1","o2","NLP_C1","C4","null","null","hiding_1","","[""video/bush_middle_C4.mp4""]","","","",""
"","","","","","html-button-response2","101","616982","0.0-7.0-2.0-0.0-2.0-0.0-0.0","NLP","C1","o2","NLP_C1","C4","1702","1","hiding_2","","","","","",""
"","","","","","video-button-response","102","619547","0.0-7.0-2.0-0.0-2.0-0.0-1.0","NLP","C1","o2","NLP_C1","C4","null","null","hiding_2","","[""video/bush_middle_C4.mp4""]","","","",""
"","","","","","html-button-response2","103","621537","0.0-7.0-2.0-0.0-2.0-1.0-0.0","NLP","C1","o2","NLP_C1","C4","1989","2","hiding_2","","","","","",""
"","","","","","video-button-response","104","624090","0.0-7.0-2.0-0.0-2.0-1.0-1.0","NLP","C1","o2","NLP_C1","C4","null","null","hiding_2","","[""video/bush_middle_C4.mp4""]","","","",""
"","","","","","html-button-response2","105","624716","0.0-7.0-2.0-0.0-2.0-2.0-0.0","NLP","C1","o2","NLP_C1","C4","625","1","hiding_2","","","","","",""
"","","","","","video-button-response","106","627290","0.0-7.0-2.0-0.0-2.0-2.0-1.0","NLP","C1","o2","NLP_C1","C4","null","null","hiding_2","","[""video/bush_right_C4.mp4""]","","","",""
"","","","","","html-button-response2","107","639528","0.0-7.0-2.0-0.0-2.0-3.0-0.0","NLP","C1","o2","NLP_C1","C4","12237","1","hiding_2","","","","","",""
"","","","","","video-button-response","108","642118","0.0-7.0-2.0-0.0-2.0-3.0-1.0","NLP","C1","o2","NLP_C1","C4","null","null","hiding_2","","[""video/bush_left_C4.mp4""]","","","",""
"","","","","","html-button-response2","109","643640","0.0-7.0-2.0-0.0-2.0-4.0-0.0","NLP","C1","o2","NLP_C1","C4","1521","1","hiding_2","","","","","",""
"","","","","","video-button-response","110","646214","0.0-7.0-2.0-0.0-2.0-4.0-1.0","NLP","C1","o2","NLP_C1","C4","null","null","hiding_2","","[""video/bush_middle_C4.mp4""]","","","",""
"","","","","","html-button-response2","111","648266","0.0-7.0-2.0-0.0-2.0-5.0-0.0","NLP","C1","o2","NLP_C1","C4","2051","2","hiding_2","","","","","",""
"","","","","","video-button-response","112","650823","0.0-7.0-2.0-0.0-2.0-5.0-1.0","NLP","C1","o2","NLP_C1","C4","null","null","hiding_2","","[""video/bush_right_C4.mp4""]","","","",""
"","","","","","html-button-response2","113","653070","0.0-7.0-2.0-0.0-2.0-6.0-0.0","NLP","C1","o2","NLP_C1","C4","2247","2","hiding_2","","","","","",""
"","","","","","video-button-response","114","655622","0.0-7.0-2.0-0.0-2.0-6.0-1.0","NLP","C1","o2","NLP_C1","C4","null","null","hiding_2","","[""video/bush_middle_C4.mp4""]","","","",""
"","","","","","html-button-response2","115","657280","0.0-7.0-2.0-0.0-2.0-7.0-0.0","NLP","C1","o2","NLP_C1","C4","1657","0","hiding_2","","","","","",""
"","","","","","video-button-response","116","659846","0.0-7.0-2.0-0.0-2.0-7.0-1.0","NLP","C1","o2","NLP_C1","C4","null","null","hiding_2","","[""video/bush_left_C4.mp4""]","","","",""
"","","","","","html-button-response2","117","660785","0.0-7.0-2.0-0.0-3.0-0.0-0.0","NLP","C1","o2","NLP_C1","C4","938","2","hiding_3","","","","","",""
"","","","","","video-button-response","118","663344","0.0-7.0-2.0-0.0-3.0-0.0-1.0","NLP","C1","o2","NLP_C1","C4","null","null","hiding_3","","[""video/bush_right_C4.mp4""]","","","",""
"","","","","","html-button-response2","119","665356","0.0-7.0-2.0-0.0-3.0-1.0-0.0","NLP","C1","o2","NLP_C1","C4","2010","1","hiding_3","","","","","",""
"","","","","","video-button-response","120","667932","0.0-7.0-2.0-0.0-3.0-1.0-1.0","NLP","C1","o2","NLP_C1","C4","null","null","hiding_3","","[""video/bush_left_C4.mp4""]","","","",""
"","","","","","html-button-response2","121","669925","0.0-7.0-2.0-0.0-3.0-2.0-0.0","NLP","C1","o2","NLP_C1","C4","1992","1","hiding_3","","","","","",""
"","","","","","video-button-response","122","672475","0.0-7.0-2.0-0.0-3.0-2.0-1.0","NLP","C1","o2","NLP_C1","C4","null","null","hiding_3","","[""video/bush_middle_C4.mp4""]","","","",""
"","","","","","html-button-response2","123","672976","0.0-7.0-2.0-0.0-3.0-3.0-0.0","NLP","C1","o2","NLP_C1","C4","499","2","hiding_3","","","","","",""
"","","","","","video-button-response","124","675547","0.0-7.0-2.0-0.0-3.0-3.0-1.0","NLP","C1","o2","NLP_C1","C4","null","null","hiding_3","","[""video/bush_right_C4.mp4""]","","","",""
"","","","","","html-button-response2","125","676808","0.0-7.0-2.0-0.0-3.0-4.0-0.0","NLP","C1","o2","NLP_C1","C4","1259","1","hiding_3","","","","","",""
"","","","","","video-button-response","126","679366","0.0-7.0-2.0-0.0-3.0-4.0-1.0","NLP","C1","o2","NLP_C1","C4","null","null","hiding_3","","[""video/bush_middle_C4.mp4""]","","","",""
"","","","","","html-button-response2","127","680368","0.0-7.0-2.0-0.0-3.0-5.0-0.0","NLP","C1","o2","NLP_C1","C4","1001","0","hiding_3","","","","","",""
"","","","","","video-button-response","128","682929","0.0-7.0-2.0-0.0-3.0-5.0-1.0","NLP","C1","o2","NLP_C1","C4","null","null","hiding_3","","[""video/bush_left_C4.mp4""]","","","",""
"","","","","","html-button-response2","129","683143","0.0-7.0-2.0-0.0-3.0-6.0-0.0","NLP","C1","o2","NLP_C1","C4","213","2","hiding_3","","","","","",""
"","","","","","video-button-response","130","685702","0.0-7.0-2.0-0.0-3.0-6.0-1.0","NLP","C1","o2","NLP_C1","C4","null","null","hiding_3","","[""video/bush_left_C4.mp4""]","","","",""
"","","","","","html-button-response2","131","686635","0.0-7.0-2.0-0.0-3.0-7.0-0.0","NLP","C1","o2","NLP_C1","C4","932","0","hiding_3","","","","","",""
"","","","","","video-button-response","132","689201","0.0-7.0-2.0-0.0-3.0-7.0-1.0","NLP","C1","o2","NLP_C1","C4","null","null","hiding_3","","[""video/bush_left_C4.mp4""]","","","",""
"","","","","","html-button-response","133","692384","0.0-7.0-2.0-0.0-4.0-0.0","NLP","C1","o2","NLP_C1","C4","3182","0","followup-survey","","<p>Now I have some questions for you.</p>","","","",""
"","","","","","survey-multi-choice","134","699861","0.0-7.0-2.0-0.0-4.0-1.0","NLP","C1","o2","NLP_C1","C4","7476","{""liked"":""A little""}","followup-survey","","","","","","[0]"
"","","","","","survey-multi-choice","135","708674","0.0-7.0-2.0-0.0-4.0-2.0","NLP","C1","o2","NLP_C1","C4","8809","{""learned"":""A little""}","followup-survey","","","","","","[0]"
"","","","","","survey-text","136","728753","0.0-7.0-2.0-0.0-4.0-3.0","NLP","C1","o2","NLP_C1","C4","20073","{""learned-q"":""because it was pretty hard because robot had to hide in the opposite from where I had to pick""}","followup-survey","","","","","",""
"","","","","","survey-multi-choice","137","748716","0.0-7.0-2.0-0.0-4.0-4.0","NLP","C1","o2","NLP_C1","C4","19961","{""guesses"":""More""}","followup-survey","","","","","","[0]"
