"success","timeout","failed_images","failed_audio","failed_video","trial_type","trial_index","time_elapsed","internal_node_id","condition","counterbalancing","order","version","followup","rt","response","task_part","accuracy","stimulus","choices","correct_response","correct","question_order"
"true","false","[]","[]","[]","preload","0","3","0.0-0.0","LP","C2","o1","LP_C2","C4","","","","","","","","",""
"","","","","","survey-text","1","5042","0.0-1.0","LP","C2","o1","LP_C2","C4","5018","{""participant_name"":""Adrian"",""participant_ID"":""006""}","id-question","","","","","",""
"","","","","","survey","2","9693","0.0-2.0","LP","C2","o1","LP_C2","C4","4585","{""condition"":""LP"",""counterbalancing"":""2"",""order"":1}","version","[]","","","","",""
"true","","","","","fullscreen","3","20396","0.0-3.0","LP","C2","o1","LP_C2","C4","","","fullscreen","","","","","",""
"","","","","","video-button-response","4","29674","0.0-4.0-0.0-0.0-0.0-0.0","LP","C2","o1","LP_C2","C4","null","null","demo","","[""video/shape_inst1_C2.mp4""]","","","",""
"","","","","","video-button-response","5","37929","0.0-4.0-0.0-0.0-0.0-1.0","LP","C2","o1","LP_C2","C4","8252","0","demo","","[""video/shape_inst2_C2.mp4""]","","","",""
"","","","","","video-button-response","6","39422","0.0-4.0-0.0-0.0-0.0-2.0","LP","C2","o1","LP_C2","C4","null","null","demo","","[""video/trial_correct_C2.mp4""]","","","",""
"","","","","","video-button-response","7","47844","0.0-4.0-0.0-0.0-0.0-3.0","LP","C2","o1","LP_C2","C4","8420","0","demo","","[""video/shape_inst3_C2.mp4""]","","","",""
"","","","","","video-button-response","8","49322","0.0-4.0-0.0-0.0-0.0-4.0","LP","C2","o1","LP_C2","C4","null","null","demo","","[""video/trial_wrong_C2.mp4""]","","","",""
"","","","","","video-button-response","9","58921","0.0-4.0-0.0-0.0-0.0-5.0","LP","C2","o1","LP_C2","C4","null","null","demo","","[""video/shape_inst4_C2.mp4""]","","","",""
"","","","","","video-button-response","10","69992","0.0-4.0-0.0-0.0-0.0-6.0","LP","C2","o1","LP_C2","C4","null","null","demo","","[""video/shape_inst5_C2.mp4""]","","","",""
"","","","","","html-button-response","11","82060","0.0-4.0-0.0-0.0-0.0-7.0","LP","C2","o1","LP_C2","C4","12066","1","demo","","<p> Do you want to hear the instructions again or are you ready to play the game?</p>","","","",""
"","","","","","html-button-response","12","96489","0.0-4.0-1.0-0.0-0.0-0.0","LP","C2","o1","LP_C2","C4","14425","2","day-1","","<img src=""img/char1_C2.png""></img>","[""img/shape/34o.png"",""img/shape/45g.png"",""img/shape/26b.png"",""img/shape/83r.png""]","[]","false",""
"","","","","","video-button-response","13","97993","0.0-4.0-1.0-0.0-0.0-1.0","LP","C2","o1","LP_C2","C4","null","null","day-1","","[""video/trial_wrong_C2.mp4""]","","","",""
"","","","","","html-button-response","14","105058","0.0-4.0-1.0-0.0-0.0-0.1","LP","C2","o1","LP_C2","C4","7064","3","day-1","","<img src=""img/char1_C2.png""></img>","[""img/shape/35b.png"",""img/shape/64o.png"",""img/shape/23g.png"",""img/shape/16r.png""]","[]","false",""
"","","","","","video-button-response","15","106548","0.0-4.0-1.0-0.0-0.0-1.1","LP","C2","o1","LP_C2","C4","null","null","day-1","","[""video/trial_wrong_C2.mp4""]","","","",""
"","","","","","html-button-response","16","116614","0.0-4.0-1.0-0.0-0.0-0.2","LP","C2","o1","LP_C2","C4","10065","3","day-1","","<img src=""img/char1_C2.png""></img>","[""img/shape/43r.png"",""img/shape/15g.png"",""img/shape/66b.png"",""img/shape/24o.png""]","[0,1,2,3]","true",""
"","","","","","video-button-response","17","118144","0.0-4.0-1.0-0.0-0.0-1.2","LP","C2","o1","LP_C2","C4","null","null","day-1","","[""video/trial_correct_C2.mp4""]","","","",""
"","","","","","html-button-response","18","125810","0.0-4.0-1.0-0.0-0.0-0.3","LP","C2","o1","LP_C2","C4","7665","2","day-1","","<img src=""img/char1_C2.png""></img>","[""img/shape/25r.png"",""img/shape/73o.png"",""img/shape/86g.png"",""img/shape/44b.png""]","[]","false",""
"","","","","","video-button-response","19","127296","0.0-4.0-1.0-0.0-0.0-1.3","LP","C2","o1","LP_C2","C4","null","null","day-1","","[""video/trial_wrong_C2.mp4""]","","","",""
"","","","","","html-button-response","20","131426","0.0-4.0-1.0-0.0-0.0-0.4","LP","C2","o1","LP_C2","C4","4129","2","day-1","","<img src=""img/char1_C2.png""></img>","[""img/shape/43o.png"",""img/shape/65r.png"",""img/shape/54g.png"",""img/shape/36b.png""]","[]","false",""
"","","","","","video-button-response","21","132906","0.0-4.0-1.0-0.0-0.0-1.4","LP","C2","o1","LP_C2","C4","null","null","day-1","","[""video/trial_wrong_C2.mp4""]","","","",""
"","","","","","html-button-response","22","140341","0.0-4.0-1.0-0.0-0.0-0.5","LP","C2","o1","LP_C2","C4","7433","3","day-1","","<img src=""img/char1_C2.png""></img>","[""img/shape/63g.png"",""img/shape/76b.png"",""img/shape/15o.png"",""img/shape/34r.png""]","[]","false",""
"","","","","","video-button-response","23","141802","0.0-4.0-1.0-0.0-0.0-1.5","LP","C2","o1","LP_C2","C4","null","null","day-1","","[""video/trial_wrong_C2.mp4""]","","","",""
"","","","","","html-button-response","24","149993","0.0-4.0-1.0-0.0-0.0-0.6","LP","C2","o1","LP_C2","C4","8189","1","day-1","","<img src=""img/char1_C2.png""></img>","[""img/shape/13b.png"",""img/shape/74r.png"",""img/shape/46o.png"",""img/shape/85g.png""]","[]","false",""
"","","","","","video-button-response","25","151487","0.0-4.0-1.0-0.0-0.0-1.6","LP","C2","o1","LP_C2","C4","null","null","day-1","","[""video/trial_wrong_C2.mp4""]","","","",""
"","","","","","html-button-response","26","162163","0.0-4.0-1.0-0.0-0.0-0.7","LP","C2","o1","LP_C2","C4","10674","1","day-1","","<img src=""img/char1_C2.png""></img>","[""img/shape/14g.png"",""img/shape/33o.png"",""img/shape/56r.png"",""img/shape/75b.png""]","[0,1,2,3]","true",""
"","","","","","video-button-response","27","163663","0.0-4.0-1.0-0.0-0.0-1.7","LP","C2","o1","LP_C2","C4","null","null","day-1","","[""video/trial_correct_C2.mp4""]","","","",""
"","","","","","video-button-response","28","176442","0.0-4.0-1.0-2.0","LP","C2","o1","LP_C2","C4","null","null","night1","","[""video/night1_LP_C2.mp4""]","","","",""
"","","","","","html-button-response","29","182134","0.0-4.0-2.0-0.0-0.0-0.0","LP","C2","o1","LP_C2","C4","5691","2","day-2","","<img src=""img/char1_C2.png""></img>","[""img/shape/53g.png"",""img/shape/46r.png"",""img/shape/85o.png"",""img/shape/74b.png""]","[0,1,2,3]","true",""
"","","","","","video-button-response","30","183609","0.0-4.0-2.0-0.0-0.0-1.0","LP","C2","o1","LP_C2","C4","null","null","day-2","","[""video/trial_correct_C2.mp4""]","","","",""
"","","","","","html-button-response","31","187247","0.0-4.0-2.0-0.0-0.0-0.1","LP","C2","o1","LP_C2","C4","3635","1","day-2","","<img src=""img/char1_C2.png""></img>","[""img/shape/15r.png"",""img/shape/34b.png"",""img/shape/66g.png"",""img/shape/23o.png""]","[]","false",""
"","","","","","video-button-response","32","188729","0.0-4.0-2.0-0.0-0.0-1.1","LP","C2","o1","LP_C2","C4","null","null","day-2","","[""video/trial_wrong_C2.mp4""]","","","",""
"","","","","","html-button-response","33","194060","0.0-4.0-2.0-0.0-0.0-0.2","LP","C2","o1","LP_C2","C4","5329","1","day-2","","<img src=""img/char1_C2.png""></img>","[""img/shape/55r.png"",""img/shape/26g.png"",""img/shape/43b.png"",""img/shape/74o.png""]","[0,1,2,3]","true",""
"","","","","","video-button-response","34","195534","0.0-4.0-2.0-0.0-0.0-1.2","LP","C2","o1","LP_C2","C4","null","null","day-2","","[""video/trial_correct_C2.mp4""]","","","",""
"","","","","","html-button-response","35","199255","0.0-4.0-2.0-0.0-0.0-0.3","LP","C2","o1","LP_C2","C4","3720","3","day-2","","<img src=""img/char1_C2.png""></img>","[""img/shape/75g.png"",""img/shape/63o.png"",""img/shape/86r.png"",""img/shape/54b.png""]","[]","false",""
"","","","","","video-button-response","36","200782","0.0-4.0-2.0-0.0-0.0-1.3","LP","C2","o1","LP_C2","C4","null","null","day-2","","[""video/trial_wrong_C2.mp4""]","","","",""
"","","","","","html-button-response","37","204508","0.0-4.0-2.0-0.0-0.0-0.4","LP","C2","o1","LP_C2","C4","3724","3","day-2","","<img src=""img/char1_C2.png""></img>","[""img/shape/44g.png"",""img/shape/33r.png"",""img/shape/65b.png"",""img/shape/16o.png""]","[0,1,2,3]","true",""
"","","","","","video-button-response","38","205995","0.0-4.0-2.0-0.0-0.0-1.4","LP","C2","o1","LP_C2","C4","null","null","day-2","","[""video/trial_correct_C2.mp4""]","","","",""
"","","","","","html-button-response","39","212946","0.0-4.0-2.0-0.0-0.0-0.5","LP","C2","o1","LP_C2","C4","6950","0","day-2","","<img src=""img/char1_C2.png""></img>","[""img/shape/64r.png"",""img/shape/13g.png"",""img/shape/56b.png"",""img/shape/45o.png""]","[]","false",""
"","","","","","video-button-response","40","214436","0.0-4.0-2.0-0.0-0.0-1.5","LP","C2","o1","LP_C2","C4","null","null","day-2","","[""video/trial_wrong_C2.mp4""]","","","",""
"","","","","","html-button-response","41","218533","0.0-4.0-2.0-0.0-0.0-0.6","LP","C2","o1","LP_C2","C4","4096","1","day-2","","<img src=""img/char1_C2.png""></img>","[""img/shape/35g.png"",""img/shape/16b.png"",""img/shape/73r.png"",""img/shape/54o.png""]","[]","false",""
"","","","","","video-button-response","42","220004","0.0-4.0-2.0-0.0-0.0-1.6","LP","C2","o1","LP_C2","C4","null","null","day-2","","[""video/trial_wrong_C2.mp4""]","","","",""
"","","","","","html-button-response","43","225551","0.0-4.0-2.0-0.0-0.0-0.7","LP","C2","o1","LP_C2","C4","5546","3","day-2","","<img src=""img/char1_C2.png""></img>","[""img/shape/25b.png"",""img/shape/14o.png"",""img/shape/36g.png"",""img/shape/53r.png""]","[0,1,2,3]","true",""
"","","","","","video-button-response","44","227022","0.0-4.0-2.0-0.0-0.0-1.7","LP","C2","o1","LP_C2","C4","null","null","day-2","","[""video/trial_correct_C2.mp4""]","","","",""
"","","","","","video-button-response","45","241316","0.0-4.0-2.0-2.0","LP","C2","o1","LP_C2","C4","null","null","night2","","[""video/night2_LP_C2.mp4""]","","","",""
"","","","","","html-button-response","46","246174","0.0-4.0-3.0-0.0-0.0","LP","C2","o1","LP_C2","C4","4857","2","day-3","","<img src=""img/char1_C2.png""></img>","[""img/shape/45r.png"",""img/shape/13o.png"",""img/shape/24b.png"",""img/shape/56g.png""]","[]","false",""
"","","","","","video-button-response","47","247651","0.0-4.0-3.0-0.0-1.0","LP","C2","o1","LP_C2","C4","null","null","day-3","","[""video/trial_wrong_C2.mp4""]","","","",""
"","","","","","html-button-response","48","250089","0.0-4.0-3.0-0.0-0.1","LP","C2","o1","LP_C2","C4","2436","2","day-3","","<img src=""img/char1_C2.png""></img>","[""img/shape/85r.png"",""img/shape/46b.png"",""img/shape/53o.png"",""img/shape/24g.png""]","[0,1,2,3]","true",""
"","","","","","video-button-response","49","251555","0.0-4.0-3.0-0.0-1.1","LP","C2","o1","LP_C2","C4","null","null","day-3","","[""video/trial_correct_C2.mp4""]","","","",""
"","","","","","html-button-response","50","254722","0.0-4.0-3.0-0.0-0.2","LP","C2","o1","LP_C2","C4","3166","3","day-3","","<img src=""img/char1_C2.png""></img>","[""img/shape/15b.png"",""img/shape/83g.png"",""img/shape/44r.png"",""img/shape/26o.png""]","[0,1,2,3]","true",""
"","","","","","video-button-response","51","256185","0.0-4.0-3.0-0.0-1.2","LP","C2","o1","LP_C2","C4","null","null","day-3","","[""video/trial_correct_C2.mp4""]","","","",""
"","","","","","html-button-response","52","259441","0.0-4.0-3.0-0.0-0.3","LP","C2","o1","LP_C2","C4","3256","3","day-3","","<img src=""img/char1_C2.png""></img>","[""img/shape/35r.png"",""img/shape/43g.png"",""img/shape/76o.png"",""img/shape/64b.png""]","[0,1,2,3]","true",""
"","","","","","video-button-response","53","260920","0.0-4.0-3.0-0.0-1.3","LP","C2","o1","LP_C2","C4","null","null","day-3","","[""video/trial_correct_C2.mp4""]","","","",""
"","","","","","html-button-response","54","270683","0.0-4.0-3.0-0.0-0.4","LP","C2","o1","LP_C2","C4","9761","3","day-3","","<img src=""img/char1_C2.png""></img>","[""img/shape/16g.png"",""img/shape/54r.png"",""img/shape/73b.png"",""img/shape/35o.png""]","[]","false",""
"","","","","","video-button-response","55","272163","0.0-4.0-3.0-0.0-1.4","LP","C2","o1","LP_C2","C4","null","null","day-3","","[""video/trial_wrong_C2.mp4""]","","","",""
"","","","","","html-button-response","56","277370","0.0-4.0-3.0-0.0-0.5","LP","C2","o1","LP_C2","C4","5206","2","day-3","","<img src=""img/char1_C2.png""></img>","[""img/shape/33b.png"",""img/shape/25g.png"",""img/shape/14r.png"",""img/shape/66o.png""]","[0,1,2,3]","true",""
"","","","","","video-button-response","57","278840","0.0-4.0-3.0-0.0-1.5","LP","C2","o1","LP_C2","C4","null","null","day-3","","[""video/trial_correct_C2.mp4""]","","","",""
"","","","","","html-button-response","58","283701","0.0-4.0-3.0-0.0-0.6","LP","C2","o1","LP_C2","C4","4859","1","day-3","","<img src=""img/char1_C2.png""></img>","[""img/shape/55b.png"",""img/shape/74g.png"",""img/shape/63r.png"",""img/shape/36o.png""]","[0,1,2,3]","true",""
"","","","","","video-button-response","59","285176","0.0-4.0-3.0-0.0-1.6","LP","C2","o1","LP_C2","C4","null","null","day-3","","[""video/trial_correct_C2.mp4""]","","","",""
"","","","","","html-button-response","60","287846","0.0-4.0-3.0-0.0-0.7","LP","C2","o1","LP_C2","C4","2669","2","day-3","","<img src=""img/char1_C2.png""></img>","[""img/shape/75o.png"",""img/shape/23r.png"",""img/shape/34g.png"",""img/shape/86b.png""]","[0,1,2,3]","true",""
"","","","","","video-button-response","61","289336","0.0-4.0-3.0-0.0-1.7","LP","C2","o1","LP_C2","C4","null","null","day-3","","[""video/trial_correct_C2.mp4""]","","","",""
"","","","","","video-button-response","62","312504","0.0-4.0-3.0-1.0","LP","C2","o1","LP_C2","C4","null","null","night3","","[""video/night3_LP_C2.mp4""]","","","",""
"","","","","","html-button-response","63","314971","0.0-5.0-0.0","LP","C2","o1","LP_C2","C4","2466","0","exit-survey","","<p>Now I have some questions for you.</p>","","","",""
"","","","","","survey-multi-choice","64","326886","0.0-5.0-1.0","LP","C2","o1","LP_C2","C4","11911","{""liked"":""A lot""}","exit-survey","","","","","","[0]"
"","","","","","survey-multi-choice","65","343150","0.0-5.0-2.0","LP","C2","o1","LP_C2","C4","16258","{""learned"":""""}","exit-survey","","","","","","[0]"
"","","","","","survey-text","66","370960","0.0-5.0-3.0","LP","C2","o1","LP_C2","C4","27802","{""learned-q"":""""}","exit-survey","","","","","",""
"","","","","","survey-multi-choice","67","393933","0.0-5.0-4.0","LP","C2","o1","LP_C2","C4","22972","{""stars"":""More each day""}","exit-survey","","","","","","[0]"
"","","","","","html-button-response","68","402442","0.0-6.0-0.0","LP","C2","o1","LP_C2","C4","8503","0","options","","<p>Now, we’re going to choose a new game to play.</p><p>We’re going to look at different games, and for each set of games</p><p>you’ll choose the one you want to play the most.</p><p>Here are the options:</p>","[""Continue""]","","",""
"","","","","","video-button-response","69","415632","0.0-6.0-1.0","LP","C2","o1","LP_C2","C4","null","null","options","","[""video/opt/optA_o1_C2.mp4""]","[]","","",""
"","","","","","html-button-response2","70","420117","0.0-6.0-2.0","LP","C2","o1","LP_C2","C4","4482","2","options","","","[""img/opt/optA1.png"",""img/opt/optA3.png"",""img/opt/optA4.png""]","","",""
"","","","","","survey-text","71","422034","0.0-6.0-3.0","LP","C2","o1","LP_C2","C4","1913","{""choice-1"":""""}","options","","","","","",""
"","","","","","html-button-response","72","424348","0.0-6.0-4.0","LP","C2","o1","LP_C2","C4","2312","0","options","","<p>Alright, here are the next three options:</p>","[""Continue""]","","",""
"","","","","","video-button-response","73","437498","0.0-6.0-5.0","LP","C2","o1","LP_C2","C4","null","null","options","","[""video/opt/optB_o1_C2.mp4""]","[]","","",""
"","","","","","html-button-response2","74","440979","0.0-6.0-6.0","LP","C2","o1","LP_C2","C4","3480","1","options","","","[""img/opt/optB3.png"",""img/opt/optB4.png"",""img/opt/optB1.png""]","","",""
"","","","","","survey-text","75","442546","0.0-6.0-7.0","LP","C2","o1","LP_C2","C4","1565","{""choice-2"":""""}","options","","","","","",""
"","","","","","html-button-response","76","444206","0.0-6.0-8.0","LP","C2","o1","LP_C2","C4","1658","0","options","","<p>Alright, here are the last three options:</p>","[""Continue""]","","",""
"","","","","","video-button-response","77","457359","0.0-6.0-9.0","LP","C2","o1","LP_C2","C4","null","null","options","","[""video/opt/optC_o1_C2.mp4""]","[]","","",""
"","","","","","html-button-response2","78","461515","0.0-6.0-10.0","LP","C2","o1","LP_C2","C4","4154","0","options","","","[""img/opt/optC4.png"",""img/opt/optC1.png"",""img/opt/optC3.png""]","","",""
"","","","","","survey-text","79","462526","0.0-6.0-11.0","LP","C2","o1","LP_C2","C4","1006","{""choice-3"":""""}","options","","","","","",""
"","","","","","html-button-response","80","464457","0.0-7.0-0.0","LP","C2","o1","LP_C2","C4","1929","0","","","<p>Let's play the next game!</p>","","","",""
"","","","","","video-button-response","81","482342","0.0-7.0-2.0-0.0-0.0-0.0-0.0-0.0","LP","C2","o1","LP_C2","C4","null","null","hiding_demo","","[""video/bush_inst_C4.mp4""]","","","",""
"","","","","","html-button-response2","82","484931","0.0-7.0-2.0-0.0-0.0-0.0-0.0-1.0","LP","C2","o1","LP_C2","C4","2588","0","hiding_demo","","","","","",""
"","","","","","video-button-response","83","487502","0.0-7.0-2.0-0.0-0.0-0.0-0.0-2.0","LP","C2","o1","LP_C2","C4","null","null","hiding_demo","","[""video/bush_left_C4.mp4""]","","","",""
"","","","","","html-button-response","84","491770","0.0-7.0-2.0-0.0-0.0-0.0-0.0-3.0","LP","C2","o1","LP_C2","C4","4266","1","hiding_demo","","<p> Do you want to hear the instructions again or are you ready to play the game?</p>","","","",""
"","","","","","html-button-response2","85","498010","0.0-7.0-2.0-0.0-1.0-0.0-0.0","LP","C2","o1","LP_C2","C4","6239","1","hiding_1","","","","","",""
"","","","","","video-button-response","86","500605","0.0-7.0-2.0-0.0-1.0-0.0-1.0","LP","C2","o1","LP_C2","C4","null","null","hiding_1","","[""video/bush_middle_C4.mp4""]","","","",""
"","","","","","html-button-response2","87","506315","0.0-7.0-2.0-0.0-1.0-1.0-0.0","LP","C2","o1","LP_C2","C4","5709","2","hiding_1","","","","","",""
"","","","","","video-button-response","88","508882","0.0-7.0-2.0-0.0-1.0-1.0-1.0","LP","C2","o1","LP_C2","C4","null","null","hiding_1","","[""video/bush_left_C4.mp4""]","","","",""
"","","","","","html-button-response2","89","515483","0.0-7.0-2.0-0.0-1.0-2.0-0.0","LP","C2","o1","LP_C2","C4","6600","2","hiding_1","","","","","",""
"","","","","","video-button-response","90","518034","0.0-7.0-2.0-0.0-1.0-2.0-1.0","LP","C2","o1","LP_C2","C4","null","null","hiding_1","","[""video/bush_middle_C4.mp4""]","","","",""
"","","","","","html-button-response2","91","522189","0.0-7.0-2.0-0.0-1.0-3.0-0.0","LP","C2","o1","LP_C2","C4","4153","2","hiding_1","","","","","",""
"","","","","","video-button-response","92","524754","0.0-7.0-2.0-0.0-1.0-3.0-1.0","LP","C2","o1","LP_C2","C4","null","null","hiding_1","","[""video/bush_middle_C4.mp4""]","","","",""
"","","","","","html-button-response2","93","526634","0.0-7.0-2.0-0.0-1.0-4.0-0.0","LP","C2","o1","LP_C2","C4","1878","1","hiding_1","","","","","",""
"","","","","","video-button-response","94","529191","0.0-7.0-2.0-0.0-1.0-4.0-1.0","LP","C2","o1","LP_C2","C4","null","null","hiding_1","","[""video/bush_right_C4.mp4""]","","","",""
"","","","","","html-button-response2","95","533428","0.0-7.0-2.0-0.0-1.0-5.0-0.0","LP","C2","o1","LP_C2","C4","4235","2","hiding_1","","","","","",""
"","","","","","video-button-response","96","535996","0.0-7.0-2.0-0.0-1.0-5.0-1.0","LP","C2","o1","LP_C2","C4","null","null","hiding_1","","[""video/bush_left_C4.mp4""]","","","",""
"","","","","","html-button-response2","97","542732","0.0-7.0-2.0-0.0-1.0-6.0-0.0","LP","C2","o1","LP_C2","C4","6735","1","hiding_1","","","","","",""
"","","","","","video-button-response","98","545298","0.0-7.0-2.0-0.0-1.0-6.0-1.0","LP","C2","o1","LP_C2","C4","null","null","hiding_1","","[""video/bush_middle_C4.mp4""]","","","",""
"","","","","","html-button-response2","99","549064","0.0-7.0-2.0-0.0-1.0-7.0-0.0","LP","C2","o1","LP_C2","C4","3765","1","hiding_1","","","","","",""
"","","","","","video-button-response","100","551634","0.0-7.0-2.0-0.0-1.0-7.0-1.0","LP","C2","o1","LP_C2","C4","null","null","hiding_1","","[""video/bush_right_C4.mp4""]","","","",""
"","","","","","html-button-response2","101","553858","0.0-7.0-2.0-0.0-2.0-0.0-0.0","LP","C2","o1","LP_C2","C4","2222","1","hiding_2","","","","","",""
"","","","","","video-button-response","102","556413","0.0-7.0-2.0-0.0-2.0-0.0-1.0","LP","C2","o1","LP_C2","C4","null","null","hiding_2","","[""video/bush_middle_C4.mp4""]","","","",""
"","","","","","html-button-response2","103","558572","0.0-7.0-2.0-0.0-2.0-1.0-0.0","LP","C2","o1","LP_C2","C4","2158","2","hiding_2","","","","","",""
"","","","","","video-button-response","104","561127","0.0-7.0-2.0-0.0-2.0-1.0-1.0","LP","C2","o1","LP_C2","C4","null","null","hiding_2","","[""video/bush_right_C4.mp4""]","","","",""
"","","","","","html-button-response2","105","564483","0.0-7.0-2.0-0.0-2.0-2.0-0.0","LP","C2","o1","LP_C2","C4","3355","0","hiding_2","","","","","",""
"","","","","","video-button-response","106","567036","0.0-7.0-2.0-0.0-2.0-2.0-1.0","LP","C2","o1","LP_C2","C4","null","null","hiding_2","","[""video/bush_right_C4.mp4""]","","","",""
"","","","","","html-button-response2","107","568730","0.0-7.0-2.0-0.0-2.0-3.0-0.0","LP","C2","o1","LP_C2","C4","1693","1","hiding_2","","","","","",""
"","","","","","video-button-response","108","571303","0.0-7.0-2.0-0.0-2.0-3.0-1.0","LP","C2","o1","LP_C2","C4","null","null","hiding_2","","[""video/bush_middle_C4.mp4""]","","","",""
"","","","","","html-button-response2","109","573764","0.0-7.0-2.0-0.0-2.0-4.0-0.0","LP","C2","o1","LP_C2","C4","2459","2","hiding_2","","","","","",""
"","","","","","video-button-response","110","576316","0.0-7.0-2.0-0.0-2.0-4.0-1.0","LP","C2","o1","LP_C2","C4","null","null","hiding_2","","[""video/bush_middle_C4.mp4""]","","","",""
"","","","","","html-button-response2","111","581295","0.0-7.0-2.0-0.0-2.0-5.0-0.0","LP","C2","o1","LP_C2","C4","4977","0","hiding_2","","","","","",""
"","","","","","video-button-response","112","583847","0.0-7.0-2.0-0.0-2.0-5.0-1.0","LP","C2","o1","LP_C2","C4","null","null","hiding_2","","[""video/bush_middle_C4.mp4""]","","","",""
"","","","","","html-button-response2","113","585371","0.0-7.0-2.0-0.0-2.0-6.0-0.0","LP","C2","o1","LP_C2","C4","1523","1","hiding_2","","","","","",""
"","","","","","video-button-response","114","587921","0.0-7.0-2.0-0.0-2.0-6.0-1.0","LP","C2","o1","LP_C2","C4","null","null","hiding_2","","[""video/bush_right_C4.mp4""]","","","",""
"","","","","","html-button-response2","115","590253","0.0-7.0-2.0-0.0-2.0-7.0-0.0","LP","C2","o1","LP_C2","C4","2331","2","hiding_2","","","","","",""
"","","","","","video-button-response","116","592806","0.0-7.0-2.0-0.0-2.0-7.0-1.0","LP","C2","o1","LP_C2","C4","null","null","hiding_2","","[""video/bush_right_C4.mp4""]","","","",""
"","","","","","html-button-response2","117","594964","0.0-7.0-2.0-0.0-3.0-0.0-0.0","LP","C2","o1","LP_C2","C4","2157","2","hiding_3","","","","","",""
"","","","","","video-button-response","118","597542","0.0-7.0-2.0-0.0-3.0-0.0-1.0","LP","C2","o1","LP_C2","C4","null","null","hiding_3","","[""video/bush_right_C4.mp4""]","","","",""
"","","","","","html-button-response2","119","600062","0.0-7.0-2.0-0.0-3.0-1.0-0.0","LP","C2","o1","LP_C2","C4","2518","2","hiding_3","","","","","",""
"","","","","","video-button-response","120","602620","0.0-7.0-2.0-0.0-3.0-1.0-1.0","LP","C2","o1","LP_C2","C4","null","null","hiding_3","","[""video/bush_right_C4.mp4""]","","","",""
"","","","","","html-button-response2","121","605487","0.0-7.0-2.0-0.0-3.0-2.0-0.0","LP","C2","o1","LP_C2","C4","2866","2","hiding_3","","","","","",""
"","","","","","video-button-response","122","608038","0.0-7.0-2.0-0.0-3.0-2.0-1.0","LP","C2","o1","LP_C2","C4","null","null","hiding_3","","[""video/bush_right_C4.mp4""]","","","",""
"","","","","","html-button-response2","123","611879","0.0-7.0-2.0-0.0-3.0-3.0-0.0","LP","C2","o1","LP_C2","C4","3840","2","hiding_3","","","","","",""
"","","","","","video-button-response","124","614438","0.0-7.0-2.0-0.0-3.0-3.0-1.0","LP","C2","o1","LP_C2","C4","null","null","hiding_3","","[""video/bush_left_C4.mp4""]","","","",""
"","","","","","html-button-response2","125","617363","0.0-7.0-2.0-0.0-3.0-4.0-0.0","LP","C2","o1","LP_C2","C4","2923","0","hiding_3","","","","","",""
"","","","","","video-button-response","126","619921","0.0-7.0-2.0-0.0-3.0-4.0-1.0","LP","C2","o1","LP_C2","C4","null","null","hiding_3","","[""video/bush_left_C4.mp4""]","","","",""
"","","","","","html-button-response2","127","622595","0.0-7.0-2.0-0.0-3.0-5.0-0.0","LP","C2","o1","LP_C2","C4","2673","0","hiding_3","","","","","",""
"","","","","","video-button-response","128","625148","0.0-7.0-2.0-0.0-3.0-5.0-1.0","LP","C2","o1","LP_C2","C4","null","null","hiding_3","","[""video/bush_left_C4.mp4""]","","","",""
"","","","","","html-button-response2","129","627674","0.0-7.0-2.0-0.0-3.0-6.0-0.0","LP","C2","o1","LP_C2","C4","2525","0","hiding_3","","","","","",""
"","","","","","video-button-response","130","630225","0.0-7.0-2.0-0.0-3.0-6.0-1.0","LP","C2","o1","LP_C2","C4","null","null","hiding_3","","[""video/bush_left_C4.mp4""]","","","",""
"","","","","","html-button-response2","131","632623","0.0-7.0-2.0-0.0-3.0-7.0-0.0","LP","C2","o1","LP_C2","C4","2397","0","hiding_3","","","","","",""
"","","","","","video-button-response","132","635174","0.0-7.0-2.0-0.0-3.0-7.0-1.0","LP","C2","o1","LP_C2","C4","null","null","hiding_3","","[""video/bush_right_C4.mp4""]","","","",""
"","","","","","html-button-response","133","637037","0.0-7.0-2.0-0.0-4.0-0.0","LP","C2","o1","LP_C2","C4","1862","0","followup-survey","","<p>Now I have some questions for you.</p>","","","",""
"","","","","","survey-multi-choice","134","645911","0.0-7.0-2.0-0.0-4.0-1.0","LP","C2","o1","LP_C2","C4","8872","{""liked"":""A lot""}","followup-survey","","","","","","[0]"
"","","","","","survey-multi-choice","135","654625","0.0-7.0-2.0-0.0-4.0-2.0","LP","C2","o1","LP_C2","C4","8709","{""learned"":""A lot""}","followup-survey","","","","","","[0]"
"","","","","","survey-text","136","655969","0.0-7.0-2.0-0.0-4.0-3.0","LP","C2","o1","LP_C2","C4","1338","{""learned-q"":""""}","followup-survey","","","","","",""
"","","","","","survey-multi-choice","137","672553","0.0-7.0-2.0-0.0-4.0-4.0","LP","C2","o1","LP_C2","C4","16582","{""guesses"":""More""}","followup-survey","","","","","","[0]"
